Folder: RotamerConvolveMD/doc/example/reference_NO_2011

Note: doc/example/README
Running the PepTso example
--------------------------

Run the example from this directory::

   mkdir dcd dat
   convolve-mtss-rotamers.py --resid 47 330  --histogramBins 0 80 1  --clashDistance 2.2  \
          --output "dat/peptso-xrd"  --dcdfilename "dcd/peptso-xrd-47-330" \
          peptso.gro 

Compare the output to the reference::

   diff reference/peptso-xrd-47-330.dat dat/peptso-xrd-47-330.dat

You can also look at the PDF of the distance histogram and compare to
reference/peptso-xrd-47-330.pdf.

The above test can be run by executing the script ``test_mtssl.sh``.

File: peptso-xrd-47-330-rawDistances.dat
3.055e+01
3.488e+01
2.999e+01
3.053e+01
3.482e+01
3.004e+01
3.032e+01
3.464e+01
2.981e+01
3.061e+01
3.480e+01
2.998e+01
2.522e+01
2.934e+01
2.409e+01
2.711e+01
3.115e+01
2.603e+01
2.373e+01
2.811e+01
2.299e+01
2.497e+01
2.934e+01
2.400e+01
2.525e+01
2.970e+01
2.440e+01
2.567e+01
3.018e+01
2.508e+01
2.691e+01
3.143e+01
2.643e+01
2.642e+01
3.091e+01
2.574e+01
2.205e+01
2.655e+01
2.200e+01
2.244e+01
2.694e+01
2.237e+01
2.205e+01
2.654e+01
2.249e+01
2.859e+01
3.300e+01
2.911e+01
2.826e+01
3.273e+01
2.869e+01
2.673e+01
3.127e+01
2.688e+01
2.380e+01
2.835e+01
2.366e+01
3.134e+01
3.542e+01
3.091e+01
3.177e+01
3.589e+01
3.184e+01
3.208e+01
3.608e+01
3.175e+01
3.190e+01
3.572e+01
3.183e+01
3.123e+01
3.493e+01
3.159e+01
3.157e+01
3.538e+01
3.169e+01
3.148e+01
3.539e+01
3.169e+01
3.119e+01
3.509e+01
3.163e+01
2.991e+01
3.376e+01
3.046e+01
2.896e+01
3.262e+01
2.819e+01
3.088e+01
3.467e+01
3.017e+01
3.191e+01
3.570e+01
3.142e+01
3.213e+01
3.588e+01
3.185e+01
2.589e+01
2.995e+01
2.454e+01
2.593e+01
2.988e+01
2.469e+01
2.513e+01
2.933e+01
2.408e+01
2.411e+01
2.828e+01
2.304e+01
2.830e+01
3.274e+01
2.801e+01
3.025e+01
3.460e+01
2.992e+01
2.959e+01
3.400e+01
2.933e+01
2.947e+01
3.385e+01
2.886e+01
3.097e+01
3.498e+01
2.991e+01
3.059e+01
3.473e+01
2.959e+01
2.917e+01
3.317e+01
2.798e+01
2.893e+01
3.302e+01
2.768e+01
3.044e+01
3.453e+01
2.996e+01
2.481e+01
2.860e+01
2.332e+01
2.815e+01
3.196e+01
2.674e+01
2.911e+01
3.285e+01
2.775e+01
3.133e+01
3.506e+01
3.149e+01
3.203e+01
3.597e+01
3.151e+01
3.141e+01
3.547e+01
3.084e+01
2.803e+01
3.188e+01
2.652e+01
2.760e+01
3.144e+01
2.614e+01
2.737e+01
3.130e+01
2.586e+01
2.159e+01
2.600e+01
2.075e+01
2.245e+01
2.673e+01
2.115e+01
2.096e+01
2.517e+01
1.956e+01
1.941e+01
2.336e+01
1.795e+01
2.068e+01
2.458e+01
1.912e+01
2.264e+01
2.710e+01
2.179e+01
2.339e+01
2.778e+01
2.232e+01
2.107e+01
2.550e+01
2.027e+01
2.168e+01
2.603e+01
2.067e+01
2.387e+01
2.844e+01
2.412e+01
2.520e+01
2.977e+01
2.518e+01
2.432e+01
2.889e+01
2.412e+01
2.467e+01
2.926e+01
2.457e+01
2.836e+01
3.268e+01
2.860e+01
2.943e+01
3.354e+01
2.930e+01
2.981e+01
3.402e+01
2.901e+01
2.846e+01
3.276e+01
2.741e+01
2.815e+01
3.244e+01
2.713e+01
2.965e+01
3.398e+01
2.889e+01
2.765e+01
3.216e+01
2.756e+01
2.606e+01
3.061e+01
2.577e+01
2.753e+01
3.203e+01
2.761e+01
2.824e+01
3.270e+01
2.834e+01
3.037e+01
3.470e+01
2.979e+01
2.841e+01
3.269e+01
2.740e+01
2.841e+01
3.274e+01
2.748e+01
2.860e+01
3.299e+01
2.806e+01
2.892e+01
3.310e+01
2.916e+01
3.063e+01
3.471e+01
3.051e+01
3.002e+01
3.401e+01
2.996e+01
3.092e+01
3.503e+01
3.078e+01
3.157e+01
3.569e+01
3.109e+01
3.136e+01
3.539e+01
3.104e+01
3.158e+01
3.561e+01
3.087e+01
3.121e+01
3.543e+01
3.052e+01
2.531e+01
2.909e+01
2.369e+01
2.390e+01
2.773e+01
2.232e+01
2.548e+01
2.921e+01
2.384e+01
2.834e+01
3.185e+01
2.726e+01
3.014e+01
3.384e+01
2.907e+01
2.945e+01
3.313e+01
2.839e+01
3.300e+01

File: peptso-xrd-47-330.dat
  0.50 0.000e+00
  1.50 0.000e+00
  2.50 0.000e+00
  3.50 0.000e+00
  4.50 0.000e+00
  5.50 0.000e+00
  6.50 0.000e+00
  7.50 0.000e+00
  8.50 0.000e+00
  9.50 0.000e+00
 10.50 0.000e+00
 11.50 0.000e+00
 12.50 4.146e-05
 13.50 1.301e-04
 14.50 3.217e-04
 15.50 7.881e-04
 16.50 1.890e-03
 17.50 4.998e-03
 18.50 1.138e-02
 19.50 1.735e-02
 20.50 2.430e-02
 21.50 2.739e-02
 22.50 3.461e-02
 23.50 4.415e-02
 24.50 5.228e-02
 25.50 6.009e-02
 26.50 6.689e-02
 27.50 6.364e-02
 28.50 7.077e-02
 29.50 6.332e-02
 30.50 7.289e-02
 31.50 6.808e-02
 32.50 6.499e-02
 33.50 5.715e-02
 34.50 5.434e-02
 35.50 4.987e-02
 36.50 4.291e-02
 37.50 2.729e-02
 38.50 1.591e-02
 39.50 2.237e-03
 40.50 0.000e+00
 41.50 0.000e+00
 42.50 0.000e+00
 43.50 0.000e+00
 44.50 0.000e+00
 45.50 0.000e+00
 46.50 0.000e+00
 47.50 0.000e+00
 48.50 0.000e+00
 49.50 0.000e+00
 50.50 0.000e+00
 51.50 0.000e+00
 52.50 0.000e+00
 53.50 0.000e+00
 54.50 0.000e+00
 55.50 0.000e+00
 56.50 0.000e+00
 57.50 0.000e+00
 58.50 0.000e+00
 59.50 0.000e+00
 60.50 0.000e+00
 61.50 0.000e+00
 62.50 0.000e+00
 63.50 0.000e+00
 64.50 0.000e+00
 65.50 0.000e+00
 66.50 0.000e+00
 67.50 0.000e+00
 68.50 0.000e+00
 69.50 0.000e+00
 70.50 0.000e+00
 71.50 0.000e+00
 72.50 0.000e+00
 73.50 0.000e+00
 74.50 0.000e+00
 75.50 0.000e+00
 76.50 0.000e+00
 77.50 0.000e+00
 78.50 0.000e+00
 79.50 0.000e+00