Folder: RotamerConvolveMD/doc/example/reference_pre

Note: doc/example/README
Running the PepTso example
--------------------------

Run the example from this directory::

   mkdir dcd dat
   convolve-mtss-rotamers.py --resid 47 330  --histogramBins 0 80 1  --clashDistance 2.2  \
          --output "dat/peptso-xrd"  --dcdfilename "dcd/peptso-xrd-47-330" \
          peptso.gro 

Compare the output to the reference::

   diff reference/peptso-xrd-47-330.dat dat/peptso-xrd-47-330.dat

You can also look at the PDF of the distance histogram and compare to
reference/peptso-xrd-47-330.pdf.

The above test can be run by executing the script ``test_mtssl.sh``.

File: peptso-xrd-47-rawDistances.dat
14	59.7045
166	39.9283
323	27.7718
478	27.3531
143	63.078
299	51.8574
454	31.8093
119	31.0238
275	46.2108
430	53.555
96	38.5064
251	29.1479
406	38.1034
73	41.5829
228	68.9921
383	38.1227
49	9.85948
200	58.4288
359	54.0733
24	41.9449
176	28.8135
333	27.6106
487	27.5981
152	53.183
308	43.3916
463	23.746
129	47.2134
284	63.3127
440	54.3252
105	27.1596
261	30.5767
416	40.0627
82	50.5276
237	57.8968
392	34.1296
58	20.937
213	68.126
369	62.1649
33	26.2761
186	32.5693
343	31.3879
496	41.6102
161	36.261
318	28.0444
473	26.7284
138	55.4899
294	59.8027
449	38.7373
114	19.1885
270	37.6592
425	47.3394
91	39.115
246	40.3622
401	33.1011
67	31.4669
223	66.296
378	49.4044
43	11.6085
195	46.5461
354	51.8785
19	50.4897
171	34.3204
327	25.0383
482	22.4195
147	56.353
303	43.3762
458	22.4224
123	33.3422
279	46.3578
434	53.5586
100	31.28
256	14.7083
410	36.9938
77	36.1846
232	52.4265
387	30.5049
53	12.1139
204	52.4118
364	58.914
28	32.1616
180	30.075
338	27.7257
491	28.8248
156	41.8226
313	28.4212
468	15.9049
133	42.9581
289	57.9849
444	37.6038
109	21.3756
265	28.3345
420	39.5983
86	49.4843
241	42.37
396	27.907
62	20.1741
218	50.5002
373	49.1522
38	22.4606
190	41.6439
348	41.315
500	40.6021
165	36.9384
322	25.7582
477	22.7947
142	62.4889
298	53.5933
453	33.0154
118	31.6141
274	46.148
429	51.065
95	39.1705
250	34.8406
405	29.9305
72	40.4362
227	67.2532
382	44.2255
47	9.07805
199	54.5023
358	57.4418
23	44.1516
175	31.3275
331	29.1182
486	29.7985
151	55.2659
307	43.9234
462	22.1352
127	42.5296
283	55.4351
439	53.5948
104	32.4996
260	24.73
415	39.4379
81	51.1336
236	54.536
391	29.5663
57	18.9796
211	65.928
368	61.4835
32	30.2003
185	34.7002
342	33.8065
495	36.735
160	41.067
317	27.3643
472	16.0962
137	58.0264
293	60.7834
448	40.4831
113	25.5036
269	36.4147
424	45.4309
90	39.3741
245	32.104
400	31.661
66	27.4269
222	56.117
377	45.5229
42	20.2342
194	48.5531
352	50.5706
18	54.1655
170	35.0069
326	24.6834
481	16.1204
146	60.3152
302	47.7077
457	26.2884
122	38.1033
278	50.8286
433	55.4518
99	33.5979
255	29.0272
409	31.9557
76	48.2333
231	68.1492
386	36.4997
52	11.1044
203	58.644
363	59.3064
27	36.2318
179	29.8404
336	25.3205
490	28.2285
155	45.8913
312	34.6777
466	18.1272
132	51.0067
287	67.9363
443	50.1278
108	23.1865
264	35.2112
419	41.7617
85	53.3979
240	54.2543
395	25.6882
61	24.0304
216	62.9073
372	54.9934
36	21.3909
189	36.0313
347	40.3916
499	47.0627
164	35.144
321	25.8145
476	28.4851
141	65.4625
297	58.9428
452	37.368
117	27.2362
273	47.1652
428	52.1479
94	35.3312
249	33.1711
404	33.4115
70	32.0735
226	64.8893
381	41.079
46	11.7537
198	54.4154
357	57.5114
22	48.4139
174	32.1804
330	28.2875
485	26.6266
150	56.1172
306	44.5741
461	22.9458
126	42.5726
282	57.6386
438	58.3125
103	27.182
259	24.6649
414	40.7154
80	51.1079
235	61.4183
390	34.8866
56	15.4359
210	62.3965
367	64.2674
31	30.2012
183	30.9416
341	31.3928
494	40.1299
159	45.7735
316	33.2518
471	20.7653
136	58.0464
292	64.6411
447	44.5599
112	23.6853
268	38.6985
423	46.1167
89	47.2329
244	43.841
399	29.5507
65	24.1273
221	56.4364
376	46.4987
41	17.7852
193	44.1033
351	46.9198
17	49.6371
168	33.9908
325	22.8778
480	18.2542
145	59.2603
301	47.5951
456	26.2033
121	31.827
277	46.0523
432	54.7116
98	32.8837
254	20.3557
408	35.1512
75	42.859
230	61.7854
385	38.2291
51	12.5835
202	59.6717
362	61.5246
26	40.7917
178	31.7335
335	31.1981
489	26.8036
154	47.5154
311	34.8989
465	16.1379
131	48.3102
286	66.1168
442	48.7845
107	26.7059
263	24.9014
418	36.68
84	52.5529
239	46.3012
394	26.2119
60	19.9644
215	60.817
371	52.6985
500	41.1071