Folder: RotamerConvolveMD/doc/example/reference_pre_NO_2015

Note: doc/example/README
Running the PepTso example
--------------------------

Run the example from this directory::

   mkdir dcd dat
   convolve-mtss-rotamers.py --resid 47 330  --histogramBins 0 80 1  --clashDistance 2.2  \
          --output "dat/peptso-xrd"  --dcdfilename "dcd/peptso-xrd-47-330" \
          peptso.gro 

Compare the output to the reference::

   diff reference/peptso-xrd-47-330.dat dat/peptso-xrd-47-330.dat

You can also look at the PDF of the distance histogram and compare to
reference/peptso-xrd-47-330.pdf.

The above test can be run by executing the script ``test_mtssl.sh``.

File: peptso-xrd-47-rawDistances.dat
14	57.9656
198	53.4812
388	29.401
85	49.0939
271	33.6543
457	20.883
153	48.4206
342	32.8559
40	15.4101
227	64.426
413	37.2569
109	14.4373
296	54.5658
482	23.4846
178	30.2739
369	61.0786
65	28.7935
251	30.7798
438	57.0452
134	50.8664
321	24.2683
20	51.3446
203	58.5337
393	32.5538
90	44.2552
276	40.4684
462	13.7822
158	41.6635
348	41.5195
45	11.9433
232	55.8772
418	40.7671
114	28.7473
301	49.9996
487	23.7336
183	35.4926
374	49.6429
70	36.0996
257	21.1291
443	48.2724
139	63.9107
326	26.3555
25	41.7178
211	64.6144
398	29.0628
95	34.789
281	55.0639
468	21.7513
163	34.6847
354	47.0993
51	13.5523
237	53.9229
423	43.7505
119	27.131
306	39.7912
492	33.1784
189	40.0666
379	47.4317
76	46.4005
262	30.8646
448	43.0358
144	61.5581
331	27.3912
30	32.8777
218	57.2769
403	35.2289
100	30.2936
286	60.594
473	23.4191
168	35.8596
359	53.8582
56	16.8224
242	44.64
428	51.3433
124	38.059
312	35.9671
497	40.3397
194	42.6238
384	37.8676
81	48.1081
267	35.5369
453	33.5805
149	55.4258
338	27.5257
35	27.1704
223	67.1926
408	32.3442
105	28.1313
292	63.9104
478	24.3315
174	30.7611
365	62.7495
61	19.0127
247	29.992
433	50.419
130	40.9146
317	26.0827
16	55.4474
199	56.2665
389	31.0187
86	50.1449
272	45.1873
458	27.4431
154	47.7683
343	34.8772
41	19.1914
228	70.2062
414	38.8788
110	23.6441
297	54.5095
483	20.0657
179	31.8442
370	58.6909
66	31.1318
252	32.2007
439	54.4538
135	55.7396
322	27.693
21	49.6774
204	61.1302
394	30.8229
91	40.1801
277	50.4411
463	23.956
159	44.3325
349	46.1507
46	8.1828
233	52.2978
419	36.8881
115	20.3754
302	39.3044
488	22.1084
185	32.3728
375	47.5177
72	36.2186
258	18.8577
444	42.5322
140	66.4161
327	21.5116
26	40.9999
213	67.9961
399	25.099
96	39.6664
282	60.0403
469	23.5717
164	35.4889
355	51.5763
52	10.0911
238	53.4082
424	45.0119
120	24.0467
307	36.0508
493	33.0461
190	37.7707
380	39.4945
77	37.7084
263	20.2425
449	32.5921
145	58.7337
333	33.1349
31	30.7101
219	62.5089
404	31.2221
101	27.521
287	65.167
474	28.6262
170	34.9401
360	59.5089
57	19.0488
243	45.1286
429	52.7808
125	31.4413
313	26.7411
498	36.5203
195	42.6283
385	37.2295
82	50.8064
268	40.9463
454	34.45
150	52.1911
339	27.42
36	25.591
224	64.4139
409	34.9816
106	23.9895
293	64.9765
479	26.3339
175	29.145
366	64.8911
62	24.3477
248	36.6335
434	55.9577
131	44.0897
318	27.9546
17	50.3768
200	53.9477
390	34.8024
87	47.9321
273	38.9443
459	20.1196
155	46.3186
344	33.713
42	17.1967
229	60.046
415	33.9524
111	24.3526
298	51.373
484	18.6472
180	32.3175
371	54.9483
67	33.588
254	30.1026
440	53.7693
136	53.6361
323	23.9861
22	43.4876
205	52.3009
395	26.8363
92	43.7572
278	52.1649
464	20.1619
160	40.1691
350	46.7231
47	10.1169
234	64.1525
420	44.2509
116	27.7067
303	49.8203
489	32.1687
186	36.367
376	50.6393
73	35.8295
259	17.5083
445	39.5256
141	67.591
328	23.8894
27	38.4345
214	64.1053
400	33.0489
97	33.447
283	58.3479
470	25.4534
165	35.1204
356	54.6322
53	15.4505
239	53.1496
425	48.6204
121	29.1488
308	36.6494
494	33.3675
191	40.596
381	44.2731
78	43.9203
264	26.4537
450	35.0407
146	57.3051
334	33.2797
32	28.723
220	56.6247
405	33.9781
102	27.7825
289	61.4772
475	20.2391
171	29.6205
362	60.8009
58	12.014
244	33.4018
430	45.4982
126	38.014
314	31.168
499	41.8283
196	50.4588
386	38.3689
83	49.3062
269	34.6722
455	27.368
151	55.666
340	34.1764
38	22.316
225	71.8293
410	38.0732
107	16.5378
294	60.3311
480	21.9617
176	31.9989
367	64.6894
63	26.1887
249	33.7445
436	57.2489
132	46.2104
319	26.4272
18	51.3036
201	57.0397
391	30.7101
88	49.5604
274	46.9512
460	25.3549
156	47.772
346	42.5505
500	46.6145