Folder: RotamerConvolveMD/doc/example/reference_2011

Note: doc/example/README
Running the PepTso example
--------------------------

Run the example from this directory::

   mkdir dcd dat
   convolve-mtss-rotamers.py --resid 47 330  --histogramBins 0 80 1  --clashDistance 2.2  \
          --output "dat/peptso-xrd"  --dcdfilename "dcd/peptso-xrd-47-330" \
          peptso.gro 

Compare the output to the reference::

   diff reference/peptso-xrd-47-330.dat dat/peptso-xrd-47-330.dat

You can also look at the PDF of the distance histogram and compare to
reference/peptso-xrd-47-330.pdf.

The above test can be run by executing the script ``test_mtssl.sh``.

File: peptso-xrd-47-330-rawDistances.dat
3.016e+01
3.411e+01
2.993e+01
3.000e+01
3.392e+01
2.981e+01
2.975e+01
3.372e+01
2.959e+01
3.015e+01
3.403e+01
2.992e+01
2.512e+01
2.895e+01
2.452e+01
2.689e+01
3.065e+01
2.629e+01
2.406e+01
2.808e+01
2.373e+01
2.493e+01
2.897e+01
2.446e+01
2.556e+01
2.966e+01
2.516e+01
2.597e+01
3.010e+01
2.578e+01
2.676e+01
3.089e+01
2.658e+01
2.623e+01
3.036e+01
2.597e+01
2.244e+01
2.656e+01
2.266e+01
2.287e+01
2.698e+01
2.313e+01
2.258e+01
2.668e+01
2.315e+01
2.818e+01
3.222e+01
2.885e+01
2.819e+01
3.226e+01
2.878e+01
2.649e+01
3.064e+01
2.691e+01
2.427e+01
2.845e+01
2.444e+01
3.105e+01
3.478e+01
3.103e+01
3.146e+01
3.519e+01
3.179e+01
3.145e+01
3.510e+01
3.143e+01
3.132e+01
3.482e+01
3.152e+01
3.064e+01
3.403e+01
3.123e+01
3.093e+01
3.441e+01
3.130e+01
3.093e+01
3.447e+01
3.137e+01
3.097e+01
3.451e+01
3.153e+01
2.971e+01
3.324e+01
3.037e+01
2.892e+01
3.233e+01
2.856e+01
3.063e+01
3.412e+01
3.037e+01
3.122e+01
3.469e+01
3.108e+01
3.149e+01
3.493e+01
3.150e+01
2.580e+01
2.956e+01
2.501e+01
2.577e+01
2.945e+01
2.507e+01
2.536e+01
2.921e+01
2.478e+01
2.433e+01
2.815e+01
2.374e+01
2.838e+01
3.243e+01
2.837e+01
3.003e+01
3.400e+01
2.996e+01
2.923e+01
3.326e+01
2.928e+01
2.909e+01
3.310e+01
2.887e+01
3.050e+01
3.418e+01
2.992e+01
3.001e+01
3.380e+01
2.943e+01
2.904e+01
3.275e+01
2.837e+01
2.887e+01
3.263e+01
2.814e+01
3.018e+01
3.391e+01
3.011e+01
2.489e+01
2.841e+01
2.397e+01
2.772e+01
3.121e+01
2.684e+01
2.855e+01
3.202e+01
2.768e+01
3.069e+01
3.409e+01
3.107e+01
3.139e+01
3.501e+01
3.124e+01
3.097e+01
3.467e+01
3.076e+01
2.757e+01
3.115e+01
2.661e+01
2.717e+01
3.074e+01
2.625e+01
2.687e+01
3.048e+01
2.588e+01
2.159e+01
2.563e+01
2.109e+01
2.249e+01
2.645e+01
2.174e+01
2.126e+01
2.516e+01
2.039e+01
1.961e+01
2.327e+01
1.873e+01
2.057e+01
2.422e+01
1.963e+01
2.301e+01
2.713e+01
2.258e+01
2.324e+01
2.730e+01
2.267e+01
2.158e+01
2.568e+01
2.124e+01
2.221e+01
2.624e+01
2.167e+01
2.412e+01
2.831e+01
2.451e+01
2.518e+01
2.936e+01
2.534e+01
2.453e+01
2.873e+01
2.466e+01
2.479e+01
2.899e+01
2.497e+01
2.832e+01
3.227e+01
2.870e+01
2.899e+01
3.278e+01
2.916e+01
2.923e+01
3.312e+01
2.883e+01
2.826e+01
3.224e+01
2.772e+01
2.788e+01
3.182e+01
2.732e+01
2.918e+01
3.314e+01
2.880e+01
2.750e+01
3.163e+01
2.771e+01
2.607e+01
3.024e+01
2.612e+01
2.761e+01
3.172e+01
2.785e+01
2.786e+01
3.195e+01
2.817e+01
2.991e+01
3.386e+01
2.966e+01
2.805e+01
3.200e+01
2.752e+01
2.843e+01
3.239e+01
2.794e+01
2.842e+01
3.242e+01
2.819e+01
2.886e+01
3.267e+01
2.925e+01
3.037e+01
3.412e+01
3.047e+01
2.948e+01
3.314e+01
2.967e+01
3.036e+01
3.411e+01
3.048e+01
3.103e+01
3.479e+01
3.084e+01
3.086e+01
3.455e+01
3.079e+01
3.099e+01
3.468e+01
3.069e+01
3.074e+01
3.458e+01
3.043e+01
2.540e+01
2.891e+01
2.436e+01
2.376e+01
2.731e+01
2.277e+01
2.523e+01
2.871e+01
2.416e+01
2.794e+01
3.121e+01
2.731e+01
2.952e+01
3.291e+01
2.891e+01
2.877e+01
3.215e+01
2.809e+01
3.218e+01