Folder: RotamerConvolveMD/doc/example/reference_pre_2017/dat

Note: doc/example/README
Running the PepTso example
--------------------------

Run the example from this directory::

   mkdir dcd dat
   convolve-mtss-rotamers.py --resid 47 330  --histogramBins 0 80 1  --clashDistance 2.2  \
          --output "dat/peptso-xrd"  --dcdfilename "dcd/peptso-xrd-47-330" \
          peptso.gro 

Compare the output to the reference::

   diff reference/peptso-xrd-47-330.dat dat/peptso-xrd-47-330.dat

You can also look at the PDF of the distance histogram and compare to
reference/peptso-xrd-47-330.pdf.

The above test can be run by executing the script ``test_mtssl.sh``.

File: peptso-xrd-47-rawDistances.dat
14	57.5647
198	53.0623
388	29.254
85	49.2396
271	34.1138
457	21.3727
153	48.2627
342	32.5508
40	15.6273
227	64.4587
413	37.2194
109	14.9463
296	54.4621
482	23.0433
178	29.7918
369	60.5716
65	28.4602
251	30.666
438	56.7404
134	50.5239
321	23.7853
20	50.8336
203	58.1082
393	32.0039
90	43.9067
276	40.6063
462	13.951
158	41.4001
348	41.1665
45	11.8106
232	56.1294
418	40.4453
114	28.1799
301	49.6746
487	23.6621
183	35.3172
374	49.4271
70	35.5764
257	20.6239
443	47.7033
139	63.7159
326	26.0797
25	41.2011
211	64.1492
398	28.6075
95	34.7213
281	54.7099
468	21.257
163	34.7647
354	47.335
51	12.9219
237	53.6151
423	43.2365
119	27.3724
306	39.9492
492	33.1295
189	39.5758
379	46.9919
76	45.8368
262	30.2931
448	42.4173
144	61.7046
331	27.2097
30	32.8558
218	57.2159
403	34.8362
100	30.3037
286	60.4066
473	22.8604
168	35.2887
359	53.2837
56	16.3435
242	44.6327
428	51.0346
124	37.6394
312	35.8304
497	40.4146
194	42.8841
384	37.4887
81	48.3203
267	35.4041
453	33.5155
149	55.372
338	27.5256
35	26.8669
223	66.8268
408	32.4592
105	28.0606
292	63.4632
478	24.0691
174	30.6984
365	62.3746
61	18.7237
247	30.2788
433	50.3178
130	40.7905
317	25.7009
16	55.1254
199	55.8672
389	31.2634
86	49.9773
272	44.6743
458	26.9219
154	47.625
343	34.8358
41	18.6029
228	69.8528
414	38.4613
110	23.1557
297	54.3199
483	19.9396
179	31.4162
370	58.2814
66	30.6728
252	31.6298
439	54.0238
135	55.3629
322	27.4
21	49.0678
204	60.5348
394	30.5968
91	39.8165
277	49.8754
463	23.403
159	43.9232
349	45.8195
46	7.89449
233	52.5053
419	36.6059
115	20.4303
302	39.5673
488	22.0379
185	32.4981
375	47.5023
72	36.4615
258	19.1231
444	42.6986
140	66.2602
327	21.662
26	40.7269
213	67.4893
399	25.4422
96	39.2204
282	59.692
469	23.4262
164	35.5105
355	51.5342
52	9.51733
238	52.9605
424	44.5491
120	24.5694
307	36.2564
493	33.034
190	38.0659
380	39.3153
77	37.8015
263	20.4008
449	32.536
145	58.9354
333	32.7876
31	30.2692
219	61.9323
404	30.9034
101	27.4171
287	64.7558
474	28.0462
170	34.4078
360	58.973
57	18.6113
243	44.7652
429	52.3271
125	31.7437
313	27.1517
498	37.0232
195	42.6516
385	36.9799
82	50.587
268	40.4738
454	33.959
150	52.2781
339	27.4524
36	25.0041
224	64.1312
409	34.6017
106	23.753
293	64.4894
479	25.77
175	29.0389
366	64.3596
62	23.8492
248	36.0117
434	55.4947
131	44.383
318	28.0345
17	50.6008
200	54.2751
390	34.4579
87	47.4804
273	38.8521
459	19.9628
155	46.3012
344	33.8183
42	16.7254
229	60.4718
415	34.0471
111	24.0392
298	51.714
484	19.1083
180	31.8363
371	55.0759
67	33.1829
254	29.5382
440	53.346
136	53.4747
323	23.8904
22	43.5805
205	52.6316
395	26.7431
92	43.2359
278	51.8115
464	19.9575
160	39.746
350	46.2434
47	9.49513
234	63.5955
420	43.6734
116	27.1232
303	49.2185
489	31.6783
186	36.1288
376	50.3671
73	35.772
259	17.5391
445	39.4417
141	67.0789
328	23.5228
27	38.0236
214	63.8694
400	32.4491
97	33.6614
283	58.1711
470	24.9736
165	34.7416
356	54.1523
53	14.8949
239	52.6079
425	48.1081
121	29.4923
308	37.0329
494	33.6697
191	40.8211
381	44.0802
78	44.2416
264	26.901
450	35.2617
146	57.0125
334	33.2502
32	28.4324
220	56.5656
405	33.43
102	27.7634
289	61.5967
475	19.8986
171	29.3938
362	60.4688
58	12.1568
244	34.01
430	45.8429
126	37.8769
314	30.8263
499	41.5816
196	50.1719
386	37.7539
83	49.1044
269	34.6429
455	27.1701
151	55.0638
340	33.6407
38	22.2025
225	71.3147
410	37.8275
107	17.011
294	60.2583
480	21.61
176	31.572
367	64.1344
63	25.852
249	33.7205
436	56.8886
132	46.3611
319	26.427
18	50.676
201	56.4357
391	30.2798
88	48.9501
274	46.4051
460	24.7953
156	47.4057
346	42.139
500	46.5832